	time (ns)	angle (degree)	average angle	angle standard deviation
0	500.000	9.982		
1	501.000	13.240		
2	502.000	8.711		
3	503.000	10.070		
4	504.000	8.577		
5	505.000	11.051		
6	506.000	10.566		
7	507.000	12.625		
8	508.000	11.756		
9	509.000	13.351		
10	510.000	8.693		
11	511.000	13.592		
12	512.000	12.004	10.004	2.184
13	513.000	10.581	10.059	2.201
14	514.000	6.933	9.924	2.099
15	515.000	8.790	9.827	2.211
16	516.000	7.877	9.740	2.243
17	517.000	7.471	9.647	2.340
18	518.000	5.889	9.395	2.515
19	519.000	9.122	9.235	2.564
20	520.000	9.490	8.987	2.522
21	521.000	6.968	8.663	2.668
22	522.000	8.849	8.313	2.601
23	523.000	11.306	8.072	2.833
24	524.000	12.607	7.764	2.619
25	525.000	11.361	7.405	2.627
26	526.000	9.853	7.240	2.548
27	527.000	6.283	7.128	2.622
28	528.000	7.916	6.949	2.657
29	529.000	6.240	6.724	2.809
30	530.000	4.744	6.485	2.991
31	531.000	6.568	6.353	3.089
32	532.000	6.442	6.157	3.061
33	533.000	3.650	5.864	3.080
34	534.000	4.594	5.712	3.116
35	535.000	2.661	5.503	3.072
36	536.000	5.890	5.153	2.876
37	537.000	3.048	4.830	2.421
38	538.000	6.446	4.579	2.005
39	539.000	4.127	4.405	1.693
40	540.000	4.320	4.408	1.697
41	541.000	2.248	4.389	1.658
42	542.000	1.501	4.351	1.624
43	543.000	2.597	4.399	1.654
44	544.000	4.219	4.398	1.653
45	545.000	2.160	4.380	1.632
46	546.000	3.173	4.441	1.632
47	547.000	3.631	4.608	1.849
48	548.000	2.546	4.694	1.804
49	549.000	4.522	4.683	1.797
50	550.000	5.091	4.736	1.766
51	551.000	5.508	4.614	1.749
52	552.000	6.363	4.562	1.783
53	553.000	7.438	4.556	1.784
54	554.000	5.286	4.684	1.725
55	555.000	5.950	4.870	1.615
56	556.000	6.549	4.969	1.544
57	557.000	5.976	5.021	1.539
58	558.000	5.174	5.039	1.505
59	559.000	8.781	5.012	1.547
60	560.000	4.800	4.922	1.689
61	561.000	5.629	4.846	1.837
62	562.000	4.368	4.694	2.013
63	563.000	3.388	4.562	2.092
64	564.000	2.823	4.444	2.120
65	565.000	4.178	4.321	2.093
66	566.000	5.452	4.183	1.990
67	567.000	6.137	4.062	2.012
68	568.000	5.085	3.947	1.982
69	569.000	5.507	3.776	1.931
70	570.000	2.632	3.622	1.902
71	571.000	2.482	3.466	1.929
72	572.000	1.386	3.313	1.616
73	573.000	0.637	3.289	1.597
74	574.000	0.738	3.204	1.522
75	575.000	1.787	3.164	1.503
76	576.000	2.545	3.251	1.578
77	577.000	3.297	3.315	1.592
78	578.000	3.988	3.329	1.602
79	579.000	2.272	3.333	1.608
80	580.000	3.071	3.222	1.499
81	581.000	2.279	3.331	1.721
82	582.000	2.111	3.384	1.809
83	583.000	1.286	3.572	1.965
84	584.000	4.946	3.792	2.139
85	585.000	4.205	3.998	2.145
86	586.000	3.495	4.282	2.152
87	587.000	3.364	4.698	2.427
88	588.000	5.563	4.958	2.451
89	589.000	4.427	5.093	2.404
90	590.000	4.539	5.187	2.377
91	591.000	5.560	5.321	2.401
92	592.000	3.354	5.458	2.316
93	593.000	7.796	5.541	2.263
94	594.000	6.838	5.729	2.174
95	595.000	7.327	5.874	2.039
96	596.000	7.994	5.938	1.910
97	597.000	6.523	5.798	2.106
98	598.000	7.738	5.763	2.140
99	599.000	11.150	5.860	2.087
100	600.000	8.291	6.095	2.123
101	601.000	5.909	6.086	2.126
102	602.000	5.655	5.948	2.339
103	603.000	7.328	5.991	2.322
104	604.000	5.699	5.955	2.336
105	605.000	5.157	5.994	2.299
106	606.000	6.976	5.856	2.290
107	607.000	5.733	5.763	2.295
108	608.000	2.887	5.710	2.272
109	609.000	1.432	5.631	2.223
110	610.000	3.344	5.658	2.239
111	611.000	5.920	5.630	2.216
112	612.000	9.222	5.389	1.895
113	613.000	5.344	5.370	1.867
114	614.000	0.980	5.399	1.882
115	615.000	5.616	5.469	1.924
116	616.000	4.661	5.514	1.981
117	617.000	4.317	5.519	1.982
118	618.000	4.346	5.573	1.990
119	619.000	4.532	5.581	1.996
120	620.000	5.984	5.612	2.005
121	621.000	6.022	5.908	2.129
122	622.000	7.194	6.287	2.142
123	623.000	7.049	6.569	2.201
124	624.000	5.113	6.753	2.333
125	625.000	7.816	6.929	2.669
126	626.000	6.658	7.286	3.021
127	627.000	7.405	7.849	3.107
128	628.000	8.449	8.112	3.187
129	629.000	5.807	8.423	3.217
130	630.000	6.517	8.800	3.266
131	631.000	7.176	9.110	3.193
132	632.000	6.514	9.407	3.093
133	633.000	10.289	9.672	3.071
134	634.000	10.907	9.971	3.065
135	635.000	10.389	10.133	3.019
136	636.000	10.527	10.255	2.950
137	637.000	13.619	10.499	2.752
138	638.000	14.260	10.674	2.713
139	639.000	15.056	10.808	2.586
140	640.000	12.185	10.918	2.493
141	641.000	12.457	10.978	2.448
142	642.000	13.728	11.143	2.213
143	643.000	12.110	11.350	1.993
144	644.000	11.940	11.539	1.795
145	645.000	12.604	11.796	1.477
146	646.000	13.500	11.927	1.484
147	647.000	11.242	12.018	1.488
148	648.000	10.113	12.003	1.507
149	649.000	11.213	12.087	1.480
150	650.000	12.184	11.943	1.501
151	651.000	10.012	11.872	1.427
152	652.000	10.145	11.760	1.267
153	653.000	9.957	11.662	1.325
154	654.000	9.928	11.579	1.339
155	655.000	11.709	11.371	1.392
156	656.000	11.899	11.283	1.414
157	657.000	12.924	11.202	1.432
158	658.000	13.576	11.087	1.430
159	659.000	13.184	10.970	1.342
160	660.000	10.015	11.065	1.443
161	661.000	12.628	11.108	1.429
162	662.000	10.002	11.179	1.477
163	663.000	12.498	11.054	1.520
164	664.000	12.241	10.950	1.676
165	665.000	9.752	10.853	1.789
166	666.000	10.361	10.762	1.892
167	667.000	8.550	10.657	2.010
168	668.000	9.887	10.614	1.998
169	669.000	9.929	10.644	2.023
170	670.000	9.726	10.574	1.971
171	671.000	10.573	10.479	1.875
172	672.000	13.625	10.483	1.881
173	673.000	11.182	10.754	2.261
174	674.000	12.980	10.829	2.355
175	675.000	9.057	11.005	2.453
176	676.000	7.411	10.912	2.438
177	677.000	7.743	10.800	2.439
178	678.000	7.665	10.755	2.469
179	679.000	7.302	10.920	2.576
180	680.000	10.643	11.148	2.610
181	681.000	12.641	11.364	2.722
182	682.000	11.177	11.549	2.777
183	683.000	11.195	11.802	2.890
184	684.000	13.291	12.084	3.101
185	685.000	16.790	12.143	3.146
186	686.000	14.511	12.371	3.277
187	687.000	14.401	12.487	3.349
188	688.000	10.179	12.740	3.318
189	689.000	9.432	13.095	3.197
190	690.000	8.635	13.563	3.237
191	691.000	14.462	13.950	3.077
192	692.000	14.261	14.317	2.784
193	693.000	15.278	14.576	2.729
194	694.000	14.560	14.786	2.776
195	695.000	16.048	15.168	2.911
196	696.000	17.622	15.562	3.016
197	697.000	15.117	15.808	3.073
198	698.000	16.884	16.000	3.280
199	699.000	15.862	16.207	3.345
200	700.000	15.386	16.368	3.352
201	701.000	16.287	16.763	3.169
202	702.000	19.445	17.145	2.803
203	703.000	17.336	17.586	2.213
204	704.000	16.482	17.821	2.179
205	705.000	17.108	17.828	2.167
206	706.000	17.911	17.813	2.187
207	707.000	20.704	17.764	2.274
208	708.000	21.061	17.762	2.276
209	709.000	19.424	17.584	2.454
210	710.000	21.599	17.648	2.407
211	711.000	19.691	17.538	2.505
212	712.000	18.431	17.462	2.585
213	713.000	20.057	17.297	2.841
214	714.000	18.961	17.017	3.261
215	715.000	19.663	16.677	3.435
216	716.000	20.335	16.453	3.570
217	717.000	14.443	16.331	3.621
218	718.000	14.901	16.220	3.639
219	719.000	13.351	16.122	3.624
220	720.000	15.978	15.790	3.567
221	721.000	13.175	15.501	3.411
222	722.000	16.725	15.361	3.314
223	723.000	14.124	15.041	3.063
224	724.000	13.973	14.774	2.929
225	725.000	11.268	14.410	3.020
226	726.000	9.267	13.991	2.929
227	727.000	10.953	13.699	2.772
228	728.000	11.742	13.472	2.480
229	729.000	13.436	13.096	2.077
230	730.000	14.321	12.966	2.090
231	731.000	15.458	12.794	2.102
232	732.000	12.401	12.716	2.116
233	733.000	13.840	12.630	2.020
234	734.000	15.942	12.797	2.228
235	735.000	13.594	12.762	2.170
236	736.000	13.011	12.807	2.211
237	737.000	9.324	12.806	2.210
238	738.000	9.592	12.884	2.188
239	739.000	11.668	13.063	2.059
240	740.000	13.985	13.186	2.019
241	741.000	10.929	13.293	2.010
242	742.000	11.201	13.204	2.052
243	743.000	10.589	13.183	2.043
244	744.000	11.407	13.119	1.993
245	745.000	13.835	13.232	2.030
246	746.000	17.344	13.325	2.110
247	747.000	15.856	13.172	2.050
248	748.000	15.245	13.146	2.049
249	749.000	13.944	13.162	2.049
250	750.000	13.220	13.342	1.889
251	751.000	13.734	13.508	1.721
252	752.000	14.035	13.653	1.712
253	753.000	14.420	13.628	1.712
254	754.000	11.213	13.723	1.619
255	755.000	13.787	13.751	1.579
256	756.000	13.862	13.713	1.667
257	757.000	15.226	13.665	1.752
258	758.000	16.151	13.516	1.890
259	759.000	12.139	13.176	1.937
260	760.000	12.922	12.904	2.019
261	761.000	13.431	12.685	2.052
262	762.000	13.807	12.459	2.213
263	763.000	13.744	12.289	2.313
264	764.000	15.298	12.056	2.450
265	765.000	13.363	11.911	2.435
266	766.000	13.301	11.708	2.429
267	767.000	11.900	11.808	2.459
268	768.000	9.645	11.781	2.440
269	769.000	10.201	11.688	2.401
270	770.000	10.109	11.472	2.311
271	771.000	8.836	11.316	2.104
272	772.000	9.078	11.315	2.104
273	773.000	9.755	11.219	2.082
274	774.000	8.289	11.065	2.054
275	775.000	8.971	10.885	2.000
276	776.000	7.922	10.837	1.942
277	777.000	10.394	10.726	1.746
278	778.000	9.356	10.671	1.680
279	779.000	13.721	10.673	1.682
280	780.000	13.100	10.781	1.844
281	781.000	11.535	11.032	2.091
282	782.000	9.824	11.223	2.227
283	783.000	12.258	11.513	2.527
284	784.000	12.112	11.805	2.626
285	785.000	10.530	12.092	2.706
286	786.000	9.577	12.415	2.890
287	787.000	9.312	12.714	2.832
288	788.000	12.547	13.080	2.918
289	789.000	12.529	13.535	2.966
290	790.000	11.983	13.885	3.094
291	791.000	13.338	14.281	3.124
292	792.000	14.617	14.565	3.383
293	793.000	15.896	14.720	3.401
294	794.000	14.987	14.894	3.342
295	795.000	17.360	15.242	3.244
296	796.000	16.143	15.432	3.201
297	797.000	16.255	15.722	3.216
298	798.000	17.812	15.985	3.037
299	799.000	15.774	16.361	2.783
300	800.000	18.132	16.723	2.388
301	801.000	19.281	16.918	2.226
302	802.000	19.159	17.028	2.062
303	803.000	19.256	17.052	2.004
304	804.000	20.820	17.006	2.103
305	805.000	16.957	16.832	2.458
306	806.000	15.889	16.570	2.876
307	807.000	18.541	16.333	3.234
308	808.000	16.992	16.007	3.524
309	809.000	19.358	15.823	3.635
310	810.000	17.114	15.627	3.741
311	811.000	18.988	15.414	3.763
312	812.000	18.351	15.238	3.848
313	813.000	17.422	14.982	3.860
314	814.000	15.276	14.690	3.797
315	815.000	12.577	14.425	3.702
316	816.000	12.194	14.051	3.665
317	817.000	10.269	13.639	3.445
318	818.000	9.341	13.449	3.385
319	819.000	9.062	13.311	3.351
320	820.000	9.207	13.163	3.189
321	821.000	11.541	13.066	3.103
322	822.000	11.372	12.874	2.835
323	823.000	12.484	12.783	2.727
324	824.000	11.363	12.571	2.412
325	825.000	11.746	12.427	2.146
326	826.000	11.968	12.374	2.030
327	827.000	12.531	12.277	1.941
328	828.000	9.913	12.335	1.973
329	829.000	10.526	12.338	1.972
330	830.000	12.198	12.382	1.936
331	831.000	12.433	12.428	1.873
332	832.000	14.846	12.469	1.807
333	833.000	14.558	12.650	1.689
334	834.000	14.575	12.594	1.749
335	835.000	14.835	12.738	1.792
336	836.000	13.678	12.795	1.806
337	837.000	14.767	12.816	1.792
338	838.000	16.079	12.804	1.799
339	839.000	12.858	12.840	1.791
340	840.000	14.039	12.794	1.814
341	841.000	12.263	12.876	1.722
342	842.000	11.361	12.832	1.798
343	843.000	10.507	12.668	2.030
344	844.000	10.085	12.587	2.079
345	845.000	13.732	12.377	2.106
346	846.000	10.144	12.227	2.078
347	847.000	14.966	12.087	2.030
348	848.000	13.906	11.814	2.103
349	849.000	11.877	11.571	2.227
350	850.000	11.468	11.264	2.296
351	851.000	12.851	10.959	2.129
352	852.000	11.379	10.876	2.092
353	853.000	11.965	10.774	1.991
354	854.000	9.420	10.816	2.035
355	855.000	8.097	10.775	2.033
356	856.000	10.423	10.781	2.033
357	857.000	9.595	10.733	2.064
358	858.000	10.802	10.553	1.986
359	859.000	11.082	10.392	2.175
360	860.000	8.011	10.042	2.113
361	861.000	7.592	9.681	2.194
362	862.000	7.090	9.459	2.243
363	863.000	8.471	9.199	2.372
364	864.000	10.770	8.952	2.297
365	865.000	11.489	8.823	2.245
366	866.000	13.312	8.671	2.150
367	867.000	10.350	8.510	2.241
368	868.000	10.646	8.396	2.333
369	869.000	8.879	8.134	2.460
370	870.000	9.250	7.962	2.504
371	871.000	6.113	7.910	2.456
372	872.000	6.201	7.888	2.429
373	873.000	4.883	7.900	2.430
374	874.000	6.325	7.905	2.430
375	875.000	4.987	8.037	2.473
376	876.000	6.656	8.127	2.530
377	877.000	8.156	8.114	2.516
378	878.000	8.176	8.044	2.442
379	879.000	5.385	7.767	2.201
380	880.000	5.259	7.733	2.166
381	881.000	3.866	7.660	2.093
382	882.000	5.289	7.671	2.100
383	883.000	9.506	7.692	2.119
384	884.000	10.541	7.928	2.261
385	885.000	8.316	8.269	2.605
386	886.000	7.707	8.615	2.708
387	887.000	10.393	8.983	2.994
388	888.000	10.724	9.421	3.180
389	889.000	10.429	9.803	3.401
390	890.000	9.759	10.055	3.506
391	891.000	6.372	10.303	3.586
392	892.000	9.502	10.723	3.601
393	893.000	8.826	11.051	3.453
394	894.000	9.144	11.394	3.119
395	895.000	9.785	11.634	2.849
396	896.000	12.021	11.798	2.839
397	897.000	14.715	11.975	2.896
398	898.000	13.527	12.333	2.976
399	899.000	15.528	12.656	2.890
400	900.000	15.933	12.876	2.920
401	901.000	16.220	12.912	2.898
402	902.000	14.458	13.034	2.853
403	903.000	14.372	13.092	2.798
404	904.000	15.894	13.370	2.422
405	905.000	13.437	13.532	2.284
406	906.000	12.449	13.609	2.147
407	907.000	11.283	13.651	2.066
408	908.000	13.603	13.671	2.028
409	909.000	14.979	13.416	2.570
410	910.000	17.257	12.987	3.172
411	911.000	15.793	12.607	3.638
412	912.000	15.887	12.204	3.854
413	913.000	11.618	11.765	4.031
414	914.000	13.488	11.388	4.038
415	915.000	11.214	11.070	4.098
416	916.000	13.314	10.726	4.171
417	917.000	13.555	10.415	4.058
418	918.000	10.747	10.128	4.089
419	919.000	10.185	10.081	4.068
420	920.000	10.294	10.119	4.084
421	921.000	5.659	9.958	4.020
422	922.000	3.973	9.685	3.894
423	923.000	4.036	9.368	3.561
424	924.000	5.442	9.048	3.310
425	925.000	4.967	8.824	3.003
426	926.000	6.800	8.743	2.951
427	927.000	6.514	8.546	2.781
428	928.000	5.752	8.479	2.733
429	929.000	8.123	8.282	2.541
430	930.000	6.258	8.026	2.298
431	931.000	11.293	7.951	2.235
432	932.000	12.223	7.885	2.191
433	933.000	9.583	7.722	2.156
434	934.000	8.153	7.636	2.280
435	935.000	9.329	7.662	2.240
436	936.000	7.796	7.686	2.202
437	937.000	10.277	7.634	2.271
438	938.000	9.612	7.590	2.336
439	939.000	8.553	7.441	2.500
440	940.000	9.534	7.282	2.682
441	941.000	8.387	7.107	2.919
442	942.000	7.165	6.834	3.132
443	943.000	8.859	6.617	3.353
444	944.000	8.552	6.242	3.332
445	945.000	6.200	5.983	3.091
446	946.000	3.519	5.834	2.998
447	947.000	4.623	5.738	2.959
448	948.000	4.644	5.551	2.869
449	949.000	4.140	5.392	2.849
450	950.000	3.858	5.213	2.664
451	951.000	3.091	5.086	2.518
452	952.000	2.533	4.948	2.412
453	953.000	1.368	4.773	2.216
454	954.000	1.289	4.647	2.088
455	955.000	0.835	4.593	2.037
456	956.000	1.934	4.406	1.834
457	957.000	5.737	4.195	1.629
458	958.000	5.861	4.038	1.617
459	959.000	5.752	4.035	1.618
460	960.000	4.648	3.972	1.625
461	961.000	3.820	3.989	1.635
462	962.000	5.806	3.964	1.638
463	963.000	6.440	3.952	1.640
464	964.000	5.115	4.039	1.650
465	965.000	5.150	4.168	1.653
466	966.000	5.247	4.350	1.581
467	967.000	5.814	4.462	1.449
468	968.000	4.176	4.513	1.333
469	969.000	3.278	4.655	1.232
470	970.000	2.258	4.645	1.224
471	971.000	3.456	4.496	1.295
472	972.000	3.039	4.431	1.270
473	973.000	5.090	4.388	1.281
474	974.000	3.496	4.324	1.347
475	975.000	3.571	4.242	1.316
476	976.000	5.258	4.114	1.247
477	977.000	5.748	4.052	1.233
478	978.000	5.925	3.924	1.280
479	979.000	4.096	3.733	1.422
480	980.000	2.115	3.581	1.394
481	981.000	5.488	3.467	1.458
482	982.000	5.487	3.466	1.458
483	983.000	2.129	3.380	1.591
484	984.000	4.123	3.340	1.602
485	985.000	3.563	3.276	1.646
486	986.000	2.240	3.094	1.687
487	987.000	3.743	3.057	1.688
488	988.000	3.246	3.011	1.689
489	989.000	3.574	2.882	1.633
490	990.000	1.945	2.818	1.545
491	991.000	0.476	2.734	1.421
492	992.000	1.999	2.687	1.394
493	993.000	1.328	2.722	1.390
494	994.000	3.259	2.571	1.277
495	995.000	0.095	2.467	1.127
496	996.000	2.461	2.523	1.145
497	997.000	1.434	2.486	1.105
498	998.000	0.553	2.427	1.084
499	999.000	2.559	2.456	1.088
500	1000.000	2.439	2.376	1.062
501	1001.000	2.012	2.326	1.049
502	1002.000	4.152	2.287	1.018
503	1003.000	3.837	2.276	1.024
504	1004.000	2.918	2.320	0.965
505	1005.000	3.001	2.373	0.982
506	1006.000	1.705	2.451	0.974
507	1007.000	2.884	2.363	0.997
508	1008.000	3.540	2.385	0.949
509	1009.000	3.188	2.368	0.952
510	1010.000	2.092	2.432	0.941
511	1011.000	2.949	2.517	0.856
512	1012.000	1.754	2.677	1.178
513	1013.000	2.002	2.817	1.345
514	1014.000	2.600	2.929	1.391
515	1015.000	1.669	2.893	1.369
516	1016.000	1.574	2.916	1.391
517	1017.000	3.311	2.962	1.410
518	1018.000	3.290	3.016	1.437
519	1019.000	1.061	3.109	1.424
520	1020.000	0.652	3.144	1.429
521	1021.000	2.015	3.206	1.480
522	1022.000	3.048	3.262	1.505
523	1023.000	2.669	3.276	1.496
524	1024.000	6.564	3.346	1.520
525	1025.000	5.940	3.523	1.584
526	1026.000	4.811	3.592	1.553
527	1027.000	3.243	3.589	1.555
528	1028.000	4.433	3.714	1.519
529	1029.000	4.061	3.913	1.553
530	1030.000	4.340	3.956	1.551
531	1031.000	4.042	4.041	1.571
532	1032.000	3.744	4.220	1.468
533	1033.000	5.106	4.407	1.281
534	1034.000	4.578	4.679	1.461
535	1035.000	2.442	4.768	1.425
536	1036.000	4.692	4.983	1.497
537	1037.000	6.193	5.069	1.646
538	1038.000	3.726	5.167	1.768
539	1039.000	2.519	5.223	1.779
540	1040.000	4.784	5.413	1.812
541	1041.000	6.556	5.573	1.897
542	1042.000	4.398	5.746	1.950
543	1043.000	5.409	5.930	2.027
544	1044.000	5.522	6.147	2.104
545	1045.000	5.341	6.369	2.133
546	1046.000	8.814	6.533	2.189
547	1047.000	5.280	6.651	2.159
548	1048.000	8.023	6.821	1.973
549	1049.000	8.718	6.852	1.944
550	1050.000	8.389	6.840	1.949
551	1051.000	6.222	7.029	1.862
552	1052.000	7.985	7.241	1.612
553	1053.000	8.449	7.318	1.534
554	1054.000	8.380	7.425	1.571
555	1055.000	8.938	7.519	1.448
556	1056.000	9.457	7.699	1.454
557	1057.000	9.297	7.885	1.461
558	1058.000	9.211	7.910	1.420
559	1059.000	7.518	7.964	1.480
560	1060.000	6.706	8.057	1.373
561	1061.000	5.462	8.072	1.375
562	1062.000	5.892	8.010	1.379
563	1063.000	8.462	7.970	1.382
564	1064.000	7.807	8.075	1.342
565	1065.000	6.706	8.100	1.347
566	1066.000	9.236	8.112	1.351
567	1067.000	6.756	8.273	1.599
568	1068.000	9.897	8.337	1.658
569	1069.000	10.166	8.435	1.794
570	1070.000	5.974	8.517	1.880
571	1071.000	10.161	8.554	1.903
572	1072.000	7.600	8.646	1.907
573	1073.000	8.401	8.844	1.954
574	1074.000	7.188	9.154	2.007
575	1075.000	7.390	9.297	1.889
576	1076.000	8.824	9.244	1.932
577	1077.000	8.618	9.204	1.973
578	1078.000	8.764	9.237	1.935
579	1079.000	12.385	9.023	2.214
580	1080.000	10.550	8.921	2.373
581	1081.000	11.902	8.781	2.416
582	1082.000	11.357	8.618	2.457
583	1083.000	10.128	8.615	2.460
584	1084.000	9.817	8.425	2.518
585	1085.000	11.663	8.412	2.523
586	1086.000	13.193	8.223	2.696
587	1087.000	9.478	8.022	2.951
588	1088.000	7.130	7.813	3.174
589	1089.000	6.808	7.593	3.289
590	1090.000	7.549	7.441	3.328
591	1091.000	3.864	7.351	3.321
592	1092.000	4.227	7.049	3.185
593	1093.000	6.394	6.875	3.104
594	1094.000	6.076	6.563	2.966
595	1095.000	5.904	6.338	2.795
596	1096.000	5.419	6.229	2.693
597	1097.000	7.272	6.165	2.622
598	1098.000	3.669	6.085	2.474
599	1099.000	2.169	5.832	1.993
600	1100.000	2.168	5.760	1.886
601	1101.000	3.332	5.763	1.889
602	1102.000	4.798	5.674	1.890
603	1103.000	6.528	5.648	1.867
604	1104.000	4.817	5.743	1.833
605	1105.000	6.204	5.933	1.914
606	1106.000	4.115	5.917	1.912
607	1107.000	5.725	6.040	2.018
608	1108.000	7.403	6.175	2.119
609	1109.000	8.215	6.317	2.183
610	1110.000	9.671	6.439	2.320
611	1111.000	6.858	6.573	2.249
612	1112.000	7.688	6.849	2.105
613	1113.000	7.214	7.127	1.910
614	1114.000	4.579	7.382	1.806
615	1115.000	6.888	7.492	1.723
616	1116.000	6.239	7.553	1.715
617	1117.000	8.989	7.668	1.617
618	1118.000	5.999	7.669	1.616
619	1119.000	9.150	7.743	1.484
620	1120.000	9.275	7.790	1.435
621	1121.000	8.954	7.860	1.458
622	1122.000	10.319	7.920	1.503
623	1123.000	7.033	7.976	1.595
624	1124.000	9.069	8.134	1.673
625	1125.000	9.103	8.242	1.729
626	1126.000	9.721	8.330	1.731
627	1127.000	7.549	8.492	1.544
628	1128.000	8.057	8.609	1.528
629	1129.000	7.684	8.781	1.493
630	1130.000	6.235	8.769	1.492
631	1131.000	5.950	8.882	1.376
632	1132.000	6.911	8.832	1.389
633	1133.000	9.159	8.812	1.386
634	1134.000	9.705	8.823	1.388
635	1135.000	11.080	8.762	1.353
636	1136.000	10.809	8.795	1.319
637	1137.000	10.377	8.723	1.351
638	1138.000	9.415	8.713	1.349
639	1139.000	8.639	8.626	1.352
640	1140.000	9.796	8.602	1.376
641	1141.000	10.556	8.584	1.387
642	1142.000	8.689	8.467	1.577
643	1143.000	8.824	8.512	1.526
644	1144.000	7.882	8.521	1.510
645	1145.000	8.785	8.441	1.647
646	1146.000	9.230	8.280	1.766
647	1147.000	8.792	8.165	1.763
648	1148.000	7.847	7.981	1.684
649	1149.000	7.280	7.841	1.581
650	1150.000	8.847	7.802	1.527
651	1151.000	7.551	7.748	1.491
652	1152.000	6.953	7.665	1.497
653	1153.000	7.609	7.576	1.430
654	1154.000	4.751	7.367	1.356
655	1155.000	7.355	7.173	1.498
656	1156.000	6.189	7.097	1.459
657	1157.000	4.897	7.009	1.476
658	1158.000	5.139	6.937	1.429
659	1159.000	6.838	6.884	1.364
660	1160.000	6.484	6.847	1.321
661	1161.000	7.309	6.788	1.307
662	1162.000	9.389	6.790	1.308
663	1163.000	8.073	6.730	1.243
664	1164.000	6.568	6.770	1.286
665	1165.000	7.573	6.912	1.488
666	1166.000	5.330	6.939	1.507
667	1167.000	3.842	7.080	1.457
668	1168.000	6.913	7.053	1.458
669	1169.000	5.670	7.117	1.454
670	1170.000	6.999	7.214	1.378
671	1171.000	7.912	7.306	1.309
672	1172.000	7.853	7.271	1.333
673	1173.000	6.374	7.309	1.324
674	1174.000	7.341	7.329	1.327
675	1175.000	7.331	7.263	1.260
676	1176.000	8.557	7.280	1.274
677	1177.000	10.507	7.307	1.265
678	1178.000	8.285	7.230	1.306
679	1179.000	8.265	7.359	1.269
680	1180.000	6.688	7.513	1.037
681	1181.000	7.782	7.587	1.058
682	1182.000	7.325	7.642	0.987
683	1183.000	7.433	7.697	0.988
684	1184.000	5.964	7.684	0.987
685	1185.000	7.445	7.690	0.989
686	1186.000	7.794	7.742	0.950
687	1187.000	7.759	7.878	1.119
688	1188.000	8.487	7.883	1.116
689	1189.000	7.250	7.914	1.146
690	1190.000	5.650	7.767	1.030
691	1191.000	8.544	7.633	1.169
692	1192.000	7.706	7.636	1.170
693	1193.000	8.754	7.657	1.157
694	1194.000	7.054	7.701	1.182
695	1195.000	8.375	7.653	1.221
696	1196.000	7.583	7.499	1.468
697	1197.000	8.005	7.492	1.476
698	1198.000	7.668	7.464	1.484
699	1199.000	10.744	7.386	1.516
700	1200.000	7.463	7.311	1.544
701	1201.000	9.331	7.142	1.636
702	1202.000	6.813	7.068	1.673
703	1203.000	4.935	6.987	1.790
704	1204.000	8.340	6.835	1.814
705	1205.000	7.225	6.827	1.810
706	1206.000	8.871	6.777	1.771
707	1207.000	6.141	6.787	1.774
708	1208.000	3.579	6.703	1.745
709	1209.000	5.788	6.754	1.790
710	1210.000	6.732	6.717	1.772
711	1211.000	5.864	6.719	1.773
712	1212.000	5.863	6.549	1.563
713	1213.000	4.284	6.576	1.584
714	1214.000	5.392	6.537	1.525
715	1215.000	3.617	6.596	1.564
716	1216.000	4.747	6.804	1.676
717	1217.000	7.519	6.898	1.826
718	1218.000	7.486	7.078	2.065
719	1219.000	7.309	7.093	2.080
720	1220.000	6.284	7.191	2.091
721	1221.000	8.860	7.420	1.989
722	1222.000	7.063	7.522	1.967
723	1223.000	7.721	7.599	1.973
724	1224.000	6.498	7.685	1.941
725	1225.000	8.131	7.840	1.944
726	1226.000	8.371	7.979	1.798
727	1227.000	8.270	7.995	1.776
728	1228.000	10.145	8.102	1.569
729	1229.000	10.694	8.073	1.640
730	1230.000	11.718	7.911	1.878
731	1231.000	9.255	7.832	1.938
732	1232.000	8.587	7.731	2.030
733	1233.000	9.290	7.685	2.076
734	1234.000	8.340	7.509	2.157
735	1235.000	8.673	7.533	2.155
736	1236.000	8.001	7.532	2.155
737	1237.000	9.745	7.603	2.149
738	1238.000	7.749	7.618	2.154
739	1239.000	5.796	7.547	2.157
740	1240.000	6.302	7.530	2.153
741	1241.000	4.009	7.386	2.090
742	1242.000	3.486	7.169	2.013
743	1243.000	5.495	6.961	1.778
744	1244.000	4.793	6.955	1.770
745	1245.000	5.135	6.776	1.824
746	1246.000	4.464	6.631	1.758
747	1247.000	7.651	6.494	1.753
748	1248.000	7.702	6.288	1.788
749	1249.000	8.287	6.153	1.781
750	1250.000	8.483	6.023	1.619
751	1251.000	6.605	6.035	1.633
752	1252.000	7.857	5.984	1.660
753	1253.000	6.533	6.023	1.680
754	1254.000	5.271	6.268	1.814
755	1255.000	6.508	6.460	1.761
756	1256.000	9.106	6.456	1.764
757	1257.000	4.118	6.507	1.732
758	1258.000	5.657	6.606	1.721
759	1259.000	4.931	6.781	1.716
760	1260.000	3.522	6.790	1.722
761	1261.000	4.632	6.839	1.766
762	1262.000	6.471	6.782	1.740
763	1263.000	8.050	6.750	1.714
764	1264.000	4.524	6.845	1.771
765	1265.000	7.291	6.886	1.807
766	1266.000	10.121	6.939	1.816
767	1267.000	8.304	7.030	1.785
768	1268.000	5.378	7.045	1.782
769	1269.000	6.070	7.143	1.959
770	1270.000	7.616	7.398	1.964
771	1271.000	8.827	7.579	2.004
772	1272.000	7.893	7.910	2.222
773	1273.000	8.923	8.291	2.255
774	1274.000	6.868	8.687	2.446
775	1275.000	7.664	8.966	2.577
776	1276.000	8.985	9.173	2.706
777	1277.000	8.884	9.472	2.580
778	1278.000	7.868	9.708	2.642
779	1279.000	7.532	9.830	2.731
780	1280.000	6.886	9.975	2.742
781	1281.000	11.557	10.301	2.657
782	1282.000	10.505	10.526	2.518
783	1283.000	10.161	10.827	2.604
784	1284.000	13.227	11.057	2.672
785	1285.000	13.046	11.206	2.591
786	1286.000	14.528	11.405	2.600
787	1287.000	13.449	11.521	2.449
788	1288.000	13.229	11.611	2.340
789	1289.000	11.981	11.682	2.284
790	1290.000	13.205	11.720	2.243
791	1291.000	13.173	11.832	2.108
792	1292.000	11.922	11.930	1.951
793	1293.000	13.537	11.986	1.816
794	1294.000	11.683	11.842	1.986
795	1295.000	15.142	11.797	2.031
796	1296.000	14.569	11.725	2.120
797	1297.000	11.620	11.518	2.218
798	1298.000	13.902	11.293	2.339
799	1299.000	9.775	11.063	2.289
800	1300.000	9.911	10.773	2.430
801	1301.000	10.765	10.482	2.555
802	1302.000	9.835	10.270	2.644
803	1303.000	10.669	9.991	2.690
804	1304.000	9.981	9.702	2.721
805	1305.000	8.283	9.388	2.901
806	1306.000	7.957	9.076	2.855
807	1307.000	9.363	8.857	2.857
808	1308.000	8.375	8.472	2.613
809	1309.000	8.043	8.148	2.310
810	1310.000	7.415	7.946	2.213
811	1311.000	8.799	7.549	1.976
812	1312.000	6.187	7.348	1.997
813	1313.000	5.969	7.082	2.082
814	1314.000	6.677	6.776	2.080
815	1315.000	6.214	6.490	2.134
816	1316.000	5.958	6.100	2.226
817	1317.000	4.082	5.850	2.121
818	1318.000	5.729	5.644	2.125
819	1319.000	6.215	5.594	2.082
820	1320.000	5.512	5.460	1.932
821	1321.000	6.474	5.388	1.850
822	1322.000	6.554	5.206	1.802
823	1323.000	3.992	5.115	1.742
824	1324.000	4.739	4.948	1.565
825	1325.000	3.255	4.823	1.587
826	1326.000	3.123	4.751	1.573
827	1327.000	2.675	4.618	1.544
828	1328.000	0.931	4.558	1.509
829	1329.000	3.721	4.683	1.741
830	1330.000	3.131	4.741	1.744
831	1331.000	6.716	4.782	1.780
832	1332.000	6.023	4.808	1.806
833	1333.000	6.558	4.932	1.956
834	1334.000	3.490	4.968	1.994
835	1335.000	5.161	5.117	2.241
836	1336.000	4.610	5.247	2.268
837	1337.000	3.058	5.371	2.322
838	1338.000	4.180	5.588	2.370
839	1339.000	3.345	5.702	2.314
840	1340.000	4.727	5.838	2.227
841	1341.000	9.080	6.074	1.985
842	1342.000	5.519	6.169	1.924
843	1343.000	6.766	6.388	1.874
844	1344.000	6.854	6.433	1.896
845	1345.000	8.610	6.585	2.010
846	1346.000	7.375	6.708	2.101
847	1347.000	10.279	6.884	2.002
848	1348.000	7.256	6.959	1.969
849	1349.000	7.818	7.090	1.915
850	1350.000	8.691	7.195	1.750
851	1351.000	5.967	7.411	1.694
852	1352.000	6.075	7.654	1.513
853	1353.000	6.850	7.764	1.386
854	1354.000	6.088	7.634	1.409
855	1355.000	8.597	7.559	1.569
856	1356.000	7.858	7.511	1.612
857	1357.000	9.816	7.432	1.692
858	1358.000	9.637	7.350	1.682
859	1359.000	7.879	7.346	1.682
860	1360.000	7.046	7.217	1.567
861	1361.000	7.892	7.198	1.570
862	1362.000	5.670	7.150	1.568
863	1363.000	9.570	7.103	1.538
864	1364.000	9.428	7.173	1.524
865	1365.000	7.483	7.157	1.538
866	1366.000	5.837	7.142	1.543
867	1367.000	3.628	7.108	1.576
868	1368.000	5.568	6.961	1.603
869	1369.000	4.882	6.864	1.620
870	1370.000	6.566	6.681	1.528
871	1371.000	7.274	6.483	1.448
872	1372.000	7.050	6.287	1.576
873	1373.000	6.771	6.270	1.569
874	1374.000	6.626	6.112	1.599
875	1375.000	7.514	6.077	1.618
876	1376.000	7.733	5.930	1.446
877	1377.000	5.675	5.747	1.262
878	1378.000	6.476	5.622	1.238
879	1379.000	5.227	5.570	1.255
880	1380.000	4.919	5.629	1.193
881	1381.000	5.434	5.669	1.207
882	1382.000	5.247	5.693	1.197
883	1383.000	4.675	5.546	1.304
884	1384.000	2.996	5.449	1.260
885	1385.000	6.617	5.320	1.254
886	1386.000	3.921	5.171	1.295
887	1387.000	4.801	5.125	1.261
888	1388.000	5.892	5.075	1.185
889	1389.000	4.867	4.983	1.051
890	1390.000	4.349	4.974	1.046
891	1391.000	4.551	5.039	1.183
892	1392.000	5.107	5.033	1.183
893	1393.000	6.550	5.028	1.183
894	1394.000	5.477	5.099	1.260
895	1395.000	2.906	5.214	1.397
896	1396.000	4.834	5.335	1.479
897	1397.000	3.843	5.536	1.489
898	1398.000	3.048	5.453	1.484
899	1399.000	5.461	5.588	1.492
900	1400.000	6.268	5.622	1.483
901	1401.000	5.442	5.586	1.488
902	1402.000	5.444	5.570	1.498
903	1403.000	8.087	5.568	1.500
904	1404.000	5.099	5.502	1.580
905	1405.000	4.774	5.421	1.651
906	1406.000	7.218	5.241	1.765
907	1407.000	8.112	5.162	1.797
908	1408.000	7.722	5.296	1.746
909	1409.000	8.015	5.322	1.744
910	1410.000	4.528	5.468	1.767
911	1411.000	7.298	5.575	1.694
912	1412.000	5.663	5.554	1.699
913	1413.000	4.976	5.511	1.693
914	1414.000	4.475	5.626	1.783
915	1415.000	4.289	5.737	1.855
916	1416.000	2.904	5.774	1.913
917	1417.000	3.097	5.792	1.908
918	1418.000	2.033	5.747	1.946
919	1419.000	3.525	5.561	2.020
920	1420.000	6.248	5.404	1.966
921	1421.000	5.480	5.291	1.907
922	1422.000	7.483	5.144	1.829
923	1423.000	5.737	5.098	1.859
924	1424.000	4.934	4.896	1.883
925	1425.000	5.203	4.794	1.909
926	1426.000	8.302	4.906	2.000
927	1427.000	8.211	4.946	2.001
928	1428.000	9.014	4.995	1.999
929	1429.000	5.557	5.178	2.010
930	1430.000	3.651	5.309	1.975
931	1431.000	2.563	5.416	1.859
932	1432.000	4.183	5.513	1.819
933	1433.000	4.913	5.658	2.015
934	1434.000	4.320	5.841	2.197
935	1435.000	3.381	5.811	2.179
936	1436.000	2.267	5.892	2.213
937	1437.000	3.099	5.949	2.205
938	1438.000	7.768	5.911	2.226
939	1439.000	5.479	5.816	2.170
940	1440.000	5.526	5.688	2.117
941	1441.000	7.488	5.427	2.092
942	1442.000	6.372	5.333	2.138
943	1443.000	4.699	5.341	2.132
944	1444.000	5.936	5.343	2.130
945	1445.000	9.883	5.364	2.120
946	1446.000	10.044	5.363	2.121
947	1447.000	6.755	5.353	2.127
948	1448.000	7.747	5.278	2.229
949	1449.000	6.360	5.247	2.279
950	1450.000	4.268	5.222	2.306
951	1451.000	5.924	5.076	2.253
952	1452.000	5.008	4.961	2.304
953	1453.000	2.481	4.900	2.308
954	1454.000	3.211	4.783	2.245
955	1455.000	3.854	4.564	2.348
956	1456.000	2.597	4.540	2.350
957	1457.000	4.730	4.462	2.334
958	1458.000	4.890	4.132	2.108
959	1459.000	4.049	3.791	1.775
960	1460.000	1.523	3.679	1.665
961	1461.000	1.473	3.518	1.433
962	1462.000	2.487	3.435	1.318
963	1463.000	4.115	3.424	1.312
964	1464.000	2.617	3.463	1.400
965	1465.000	3.999	3.614	1.736
966	1466.000	4.554	3.694	1.728
967	1467.000	0.897	3.742	1.730
968	1468.000	4.100	3.754	1.732
969	1469.000	3.995	3.927	1.825
970	1470.000	1.633	3.956	1.844
971	1471.000	1.517	3.951	1.842
972	1472.000	3.934	3.959	1.843
973	1473.000	3.726	4.029	1.778
974	1474.000	4.304	4.129	1.697
975	1475.000	3.987	4.090	1.747
976	1476.000	6.889	4.111	1.751
977	1477.000	8.778	4.229	1.745
978	1478.000	4.492	4.263	1.749
979	1479.000	4.405	4.292	1.760
980	1480.000	4.162	4.417	1.614
981	1481.000	6.925	4.452	1.616
982	1482.000	5.447	4.519	1.631
983	1483.000	4.759	4.614	1.521
984	1484.000	4.257	4.682	1.411
985	1485.000	3.278	4.701	1.404
986	1486.000	3.971	4.630	1.496
987	1487.000	1.498	4.529	1.601
988	1488.000	4.662		
989	1489.000	5.559		
990	1490.000	4.854		
991	1491.000	5.282		
992	1492.000	4.014		
993	1493.000	4.967		
994	1494.000	5.671		
995	1495.000	4.010		
996	1496.000	3.223		
997	1497.000	4.400		
998	1498.000	1.967		
999	1499.000	1.764		
